Folder: TGA_mass_loss/output_data (part 2)

File: TGA_Mass_binned_1C_T.csv
,Temperature,0,1,2,3,4,5,6,7,8,9,10,11,12,13,14,15,16,17,18,19,20,21,22,23,24,25,26,27,28,29,30,31,32
25,55,28.825,30.4479,30.858,27.3805,31.4413,28.8698,31.6341,29.948,27.5636,28.0241,27.7438,26.6858,25.4145,29.8485,30.5942,28.5153,28.6495,28.9068,19.7611,27.9343,29.6367,31.3665,14.6804,26.5406,28.5302,31.0448,30.3124,28.9423,27.9068,29.2249,29.5509,27.0691,27.1756
51,81,28.0154,29.8763,30.3362,27.0228,30.7707,28.2069,30.946,29.3882,26.9906,27.3185,27.0466,25.965,24.8491,28.3256,29.9588,27.5708,28.0134,28.6485,19.2385,26.9006,29.222,30.8091,14.3203,26.0372,28.0463,30.7455,29.9363,28.5687,26.9438,28.9311,29.0351,26.2896,27.0146
77,107,27.22395,28.2853,29.4147,26.5755,29.6711,26.3632,29.0542,28.1181,25.6323,25.3963,25.0912,24.1015,23.3693,25.547,28.16965,26.4804,27.1238,27.8373,18.4999,25.7531,28.41965,29.64495,13.8831,25.069,27.2777,29.8843,29.2375,27.8684,25.8038,28.0802,28.1114,25.3009,26.4514
103,133,26.7163,27.054,28.6902,26.0909,28.7991,24.7211,27.1976,26.8687,24.444,23.3478,23.5221,22.4701,22.3297,24.4552,26.5606,25.7069,26.3828,26.72615,17.891,25.016,27.5799,28.6002,13.5425,24.1325,26.7403,28.8509,28.5067,27.1616,25.1124,27.083,27.2821,24.6445,25.6753
129,159,26.3265,26.4893,28.3145,25.6237,28.2775,23.9487,26.2825,26.0575,23.6989,22.6383,22.9668,21.7729,21.7871,24.031,25.7217,25.1244,25.7642,25.7591,17.4691,24.5356,26.9751,27.8716,13.29,23.4697,26.4703,28.0281,27.9834,26.6575,24.664,26.3671,26.6973,24.2017,25.0271
155,185,25.9341,26.0902,28.0492,25.2427,27.8663,23.4654,25.7242,25.5349,23.2012,22.2237,22.5917,21.3355,21.3935,23.6622,25.1216,24.5838,25.1506,25.0756,17.1562,24.2032,26.6344,27.3991,13.0739,23.029,26.2794,27.5609,27.6982,26.3685,24.2889,25.9157,26.2797,23.7938,24.597
181,211,25.5017,25.7183,27.8263,24.7765,27.4611,23.0519,25.2591,25.1255,22.7926,21.8516,22.2072,20.9572,21.0171,23.2799,24.5776,24.1017,24.6157,24.6125,16.922,23.9616,26.4074,27.0643,12.8831,22.7177,26.0801,27.3137,27.5547,26.2037,23.9586,25.5803,25.9457,23.4071,24.2936
207,237,24.9172,25.3031,27.6085,23.8523,26.9425,22.7184,24.8749,24.7734,22.4573,21.5438,21.8553,20.6514,20.6822,23.0092,24.1838,23.8013,24.2859,24.2988,16.7406,23.7635,26.2251,26.8224,12.7227,22.4756,25.8542,27.1402,27.4641,26.0814,23.7014,25.3065,25.6868,23.0853,24.061
233,263,24.0312,24.5854,27.3618,22.7467,26.1817,22.4392,24.5616,24.4558,22.1693,21.2962,21.596,20.3994,20.3921,22.8049,23.9168,23.5503,24.0092,24.0447,16.5662,23.5646,26.0829,26.6288,12.5718,22.2744,25.6341,26.9791,27.3729,25.9636,23.4784,25.0626,25.4788,22.7992,23.8747
259,289,23.4123,23.7697,27.0719,22.18,25.664,22.1737,24.2642,24.1569,21.8946,21.0631,21.3623,20.1591,20.1313,22.60035,23.6628,23.2922,23.7292,23.798,16.3795,23.3555,25.9551,26.4411,12.425,22.107,25.4363,26.8272,27.2772,25.8486,23.2591,24.8217,25.2851,22.551,23.7064
285,315,23.0913,23.434,26.6121,21.8733,25.2501,21.9172,23.9789,23.8812,21.6355,20.8365,21.1342,19.9253,19.8828,22.3886,23.3926,23.0162,23.4354,23.532,16.1749,23.1126,25.8271,26.243,12.2852,21.979,25.2614,26.6917,27.1816,25.7406,23.0411,24.5827,25.0995,22.3384,23.5449
311,341,22.7774,23.1195,26.1569,21.5677,24.8806,21.6771,23.7152,23.6344,21.3988,20.6209,20.9114,19.7067,19.6542,22.1535,23.0885,22.7008,23.1166,23.2437,15.955,22.7664,25.6876,26.0233,12.1574,21.8959,25.1084,26.574,27.0922,25.6424,22.821,24.3531,24.9277,22.1573,23.3912
337,367,22.4616,22.8221,25.7667,21.2705,24.5556,21.461,23.4789,23.4196,21.1926,20.419,20.6945,19.5073,19.4488,21.9098,22.7212,22.32835,22.7697,22.9397,15.7216,22.2984,25.5173,25.7493,12.0454,21.8438,24.9776,26.4706,27.0134,25.5558,22.6091,24.1422,24.7746,22.0061,23.2522
363,393,22.1877,22.5497,25.4288,21.0233,24.2699,21.2756,23.2768,23.2393,21.0218,20.2426,20.4976,19.3367,19.2691,21.7181,22.3471,21.9673,22.4449,22.6226,15.4898,21.7365,25.2684,25.3313,11.9526,21.8119,24.8724,26.3799,26.9462,25.4813,22.4375,23.9582,24.6478,21.887,23.1346
389,419,21.9741,22.3144,25.1251,20.8337,24.0281,21.1258,23.1122,23.0933,20.8852,20.0985,20.3279,19.2022,19.1173,21.572,22.0394,21.6714,22.1638,22.3214,15.299,21.3003,24.7925,24.7057,11.8786,21.7912,24.7938,26.3051,26.8895,25.4186,22.3019,23.8042,24.5494,21.7946,23.0408
415,445,21.802,22.1217,24.8723,20.6843,23.8242,21.0045,22.9784,22.9741,20.7716,19.9796,20.1714,19.0967,18.9853,21.449,21.7957,21.4349,21.9292,22.0829,15.1527,21.0341,24.0432,23.9846,11.8162,21.7769,24.7392,26.247,26.8415,25.3675,22.1862,23.6783,24.4682,21.719,22.9691
441,471,21.6599,21.957,24.6621,20.5613,23.6504,20.8934,22.857,22.8731,20.6646,19.8729,20.0159,19.0068,18.8655,21.3408,21.6029,21.2457,21.7351,21.901,15.0316,20.8115,23.3911,23.5615,11.7578,21.765,24.7041,26.2033,26.8015,25.3267,22.0856,23.5704,24.3976,21.651,22.9128
467,497,21.5468,21.8096,24.4837,20.4561,23.4988,20.7827,22.7362,22.7799,20.5573,19.7736,19.8739,18.9233,18.7588,21.2458,21.4419,21.0836,21.566,21.7527,14.9227,20.6146,23.0268,23.2897,11.6979,21.755,24.6822,26.1722,26.7696,25.2955,21.9994,23.475,24.3396,21.5858,22.8655
493,523,21.4546,21.6754,24.3335,20.36595,23.3694,20.6778,22.621,22.6924,20.4565,19.6852,19.7572,18.848,18.6726,21.1647,21.2979,20.9318,21.4097,21.6193,14.8195,20.4419,22.7755,23.0789,11.63515,21.747,24.6651,26.15,26.7427,25.271,21.9269,23.3932,24.2946,21.52,22.8254
519,549,21.3696,21.5627,24.2025,20.2897,23.2559,20.5916,22.5286,22.6147,20.3741,19.6131,19.6677,18.7875,18.6097,21.0994,21.165,20.7863,21.2603,21.4899,14.7226,20.2921,22.5717,22.9155,11.5749,21.7399,24.653,26.1307,26.7194,25.251,21.8669,23.3286,24.2616,21.4569,22.7896
545,575,21.2807,21.4816,24.084,20.2234,23.1572,20.531,22.4653,22.5522,20.3147,19.5598,19.6026,18.7459,18.5665,21.0504,21.0441,20.6519,21.121,21.3557,14.636,20.1555,22.3922,22.7676,11.5266,21.732,24.644,26.1142,26.6889,25.2305,21.8206,23.2833,24.2401,21.4033,22.7601
571,601,21.1973,21.41,23.9881,20.1644,23.0782,20.4927,22.4237,22.5072,20.274,19.5222,19.5522,18.718,18.5357,21.0115,20.9361,20.52985,20.995,21.2265,14.5631,20.0271,22.2429,22.6159,11.4942,21.7235,24.6369,26.103,26.6576,25.2083,21.7855,23.2526,24.2277,21.3632,22.7382
597,627,21.1398,21.3544,23.913,20.1096,23.0181,20.4668,22.3917,22.4715,20.2436,19.4927,19.5103,18.6972,18.5113,20.9775,20.841,20.4233,20.8854,21.1054,14.5042,19.9062,22.1203,22.4625,11.4714,21.715,24.6293,26.0935,26.639,25.192,21.7571,23.2308,24.22,21.336,22.722
623,653,21.1071,21.3205,23.848,20.058,22.9705,20.4467,22.3657,22.4403,20.2179,19.4676,19.4745,18.6818,18.4902,20.9486,20.7632,20.3379,20.7981,21.0007,14.4515,19.8081,22.0187,22.3209,11.4527,21.709,24.622,26.0857,26.6241,25.1781,21.7358,23.214,24.2145,21.3204,22.71
649,679,21.0819,21.2965,23.7889,20.0123,22.9338,20.4314,22.3433,22.412,20.1969,19.445,19.4461,18.67,18.472,20.925,20.7069,20.2731,20.7346,20.9261,14.3982,19.7388,21.9434,22.2174,11.4356,21.703,24.615,26.077,26.612,25.167,21.721,23.1998,24.2104,21.312,22.7
675,705,21.0574,21.2782,23.7318,19.9726,22.9067,20.42,22.327,22.3887,20.1819,19.427,19.426,18.662,18.4555,20.905,20.6649,20.2247,20.6852,20.8786,14.3474,19.6879,21.891,22.1473,11.4209,21.698,24.607,26.0696,26.6003,25.1562,21.71,23.188,24.207,21.306,22.6924
701,731,21.035,21.264,23.6946,19.9381,22.886,20.411,22.315,22.369,20.17,19.4131,19.4112,18.6547,18.4417,20.887,20.6316,20.1849,20.6429,20.8447,14.2989,19.6446,21.8513,22.0996,11.409,21.694,24.598,26.0609,26.5863,25.1443,21.7,23.177,24.203,21.2943,22.685
727,757,21.0172,21.253,23.669,19.9081,22.8684,20.403,22.305,22.353,20.1604,19.4005,19.399,18.6483,18.429,20.87,20.6045,20.1525,20.6086,20.8204,14.2607,19.6035,21.8195,22.0676,11.401,21.69,24.588,26.051,26.5668,25.129,21.691,23.168,24.198,21.281,22.679
753,783,21.0051,21.246,23.6422,19.8864,22.85,20.395,22.296,22.3392,20.153,19.3891,19.389,18.643,18.418,20.857,20.583,20.128,20.5821,20.8015,14.239,19.563,21.793,22.0451,11.395,21.687,24.576,26.0389,26.5383,25.106,21.685,23.16,24.193,21.2718,22.674
779,809,20.997,21.241,23.6203,19.8722,22.8291,20.389,22.289,22.327,20.1456,19.381,19.382,18.6382,18.411,20.848,20.567,20.11,20.5639,20.7864,14.226,19.5204,21.7736,22.0282,11.39,21.684,24.5611,26.0255,26.4933,25.0669,21.68,23.153,24.188,21.264,22.67
805,835,20.991,21.237,23.6084,19.8618,22.8101,20.382,22.2818,22.319,20.139,19.375,19.377,18.6333,18.405,20.841,20.556,20.097,20.5504,20.774,14.217,19.4933,21.758,22.017,11.386,21.681,24.543,26.0104,26.4221,25.004,21.676,23.147,24.1855,21.259,22.665
831,861,20.988,21.234,23.601,19.857,22.7941,20.376,22.2738,22.312,20.132,19.369,19.372,18.629,18.3987,20.836,20.5483,20.087,20.541,20.765,14.21,19.479,21.7442,22.01,11.382,21.678,24.5221,25.993,26.3199,24.91,21.673,23.1412,24.184,21.2544,22.661
857,887,20.986,21.231,23.595,19.854,22.78,20.369,22.266,22.306,20.1257,19.365,19.3695,18.625,18.3921,20.833,20.542,20.08,20.534,20.75655,14.206,19.47,21.733,22.004,11.379,21.674,24.4964,25.9725,26.1978,24.7968,21.671,23.136,24.182,21.251,22.656
883,913,20.984,21.229,23.591,19.852,22.7681,20.3641,22.259,22.3,20.119,19.361,19.367,18.621,18.387,20.83,20.539,20.0744,20.529,20.75,14.203,19.464,21.722,22.001,11.376,21.671,24.4654,25.9453,26.057,24.6702,21.669,23.132,24.181,21.2478,22.652
909,939,20.983,21.227,23.588,19.8492,22.76,20.361,22.2529,22.295,20.1124,19.359,19.3645,18.619,18.384,20.828,20.536,20.071,20.525,20.744,14.202,19.459,21.714,21.998,11.373,21.668,24.4285,25.9075,25.8976,24.5316,21.668,23.127,24.18,21.245,22.6508
935,965,20.981,21.225,23.587,19.847,22.757,20.359,22.249,22.293,20.107,19.358,19.364,18.618,18.382,20.827,20.537,20.069,20.523,20.741,14.201,19.455,21.71,21.997,11.371,21.665,24.3915,25.8548,25.7161,24.3851,21.668,23.124,24.179,21.2425,22.65
961,991,20.979,21.224,23.586,19.845,22.759,20.358,22.2483,22.294,20.106,19.359,19.365,18.618,18.381,20.827,20.5409,20.069,20.52,20.7393,14.202,19.451,21.707,21.996,11.37,21.662,24.3563,25.7891,25.5697,24.2535,21.668,23.123,24.18,21.241,22.65
970,1000,,,,,,,,,,,,,,,,,,,,,,,,,,,,,,,,,

File: TGA_Meta_Data.csv
,File#,PC_Name,Concentration(mM),L/S,Pan_#,Initial_mass_TGA_mg,Intial_mass_external_mg,NEUP_Sample_#
0,0,Al-Axial,1000,0124,3,30.635,31.3,28
1,1,Al-Axial,0807,0109,3,31.156,31.3,65
2,2,Al-Axial,0617,0094,1,32.019,31.8,86
3,3,Al-Corner,0833,0143,3,29.176,30.1,34
4,4,Al-Corner,0465,0120,1,33.131,32.8,77
5,5,Centroid,0714,0170,13,29.993,29.7,101
6,6,Centroid,0714,0173,15,32.829,32.8,102
7,7,Centroid,0593,0153,3,31.223,31.5,104
8,8,Centroid,0655,0157,5,28.740,28.9,105
9,9,Centroid,0821,0178,11,29.109,29.5,106
10,10,Centroid,0893,0181,13,28.797,30.1,107
11,11,Centroid,0714,0172,11,27.709,30.8,108
12,12,Centroid,0714,0172,13,26.274,32.8,109
13,13,Centroid,1000,0171,1,32.410,32.1,73
14,14,Mg-Axial,0714,0161,1,31.551,31.8,30
15,15,Mg-Axial,0714,0171,15,30.392,31.6,30
16,16,Mg-Axial,0714,0162,5,30.536,30.5,20
17,17,Mg-Axial,0255,0149,1,29.623,29.6,58
18,18,Mg-Axial,0362,0149,1,20.687,31.3,88
19,19,Mg-Corner,0714,0162,1,29.949,29.8,32
20,20,Mg-Corner,0251,0113,1,30.801,30.9,55
21,21,Mg-Corner,0455,0127,3,32.493,32.4,80
22,22,P-Axial,0833,0143,5,16.500,31.4,24
23,23,P-Axial,0455,0124,1,27.804,28.3,90
24,24,P-Corner,1000,0124,5,29.532,29.9,36
25,25,P-Corner,0500,0117,1,31.805,31.9,82
26,26,P-Corner,0209,0106,3,31.167,31.3,49
27,27,P-Corner,0209,0106,1,29.622,29.8,49
28,28,Si-Axial,0714,0162,1,30.085,30.1,38
29,29,Si-Axial,0385,0146,15,29.862,30.2,99
30,30,Si-Corner,0455,0126,11,30.421,30.4,100
31,31,Si-Corner,0833,0143,3,28.881,29.5,40
32,32,Si-Corner,0242,0108,5,27.785,28.0,53